Folder: Rowan-Classes/1st-Semester-Fall-2021/FEC1/LDPE Tensile Strength Tests

File: Team 3 LDPE 40 2.csv
Cycle,Test Point,Time (ms),Distance (mm),Up (N),Down (N),Force Data (N),Date / Time
1,1,0,-4.600,,,0.000,1980/01/25 05:53:40.140
1,56,1016,-5.280,0.800,,-0.800,1980/01/25 05:53:41.156
1,111,1953,-5.910,1.700,,-1.700,1980/01/25 05:53:42.093
1,166,2938,-6.560,2.400,,-2.400,1980/01/25 05:53:43.078
1,221,3969,-7.250,3.000,,-3.000,1980/01/25 05:53:44.109
1,276,4860,-7.840,3.400,,-3.400,1980/01/25 05:53:45.000
1,331,5781,-8.450,3.600,,-3.600,1980/01/25 05:53:45.921
1,386,6750,-9.100,3.900,,-3.900,1980/01/25 05:53:46.890
1,441,7688,-9.720,4.000,,-4.000,1980/01/25 05:53:47.828
1,496,8594,-10.320,4.100,,-4.100,1980/01/25 05:53:48.734
1,551,9485,-10.920,4.200,,-4.200,1980/01/25 05:53:49.625
1,606,10516,-11.600,4.300,,-4.300,1980/01/25 05:53:50.656
1,661,11453,-12.230,4.300,,-4.300,1980/01/25 05:53:51.593
1,716,12344,-12.820,4.300,,-4.300,1980/01/25 05:53:52.484
1,771,13313,-13.430,4.300,,-4.300,1980/01/25 05:53:53.453
1,826,14235,-14.080,4.300,,-4.300,1980/01/25 05:53:54.375
1,881,15172,-14.700,4.300,,-4.300,1980/01/25 05:53:55.312
1,936,16078,-15.310,4.200,,-4.200,1980/01/25 05:53:56.218
1,991,17016,-15.930,4.200,,-4.200,1980/01/25 05:53:57.156
1,1046,17922,-16.530,4.200,,-4.200,1980/01/25 05:53:58.062
1,1101,18844,-17.150,4.100,,-4.100,1980/01/25 05:53:58.984
1,1156,19766,-17.750,4.100,,-4.100,1980/01/25 05:53:59.906
1,1211,20719,-18.400,4.000,,-4.000,1980/01/25 05:54:00.859
1,1266,21656,-19.020,4.000,,-4.000,1980/01/25 05:54:01.796
1,1321,22547,-19.610,4.000,,-4.000,1980/01/25 05:54:02.687
1,1376,23547,-20.270,4.000,,-4.000,1980/01/25 05:54:03.687
1,1431,24422,-20.860,4.000,,-4.000,1980/01/25 05:54:04.562
1,1486,25375,-21.490,4.000,,-4.000,1980/01/25 05:54:05.515
1,1541,26297,-22.110,4.000,,-4.000,1980/01/25 05:54:06.437
1,1596,27328,-22.800,4.000,,-4.000,1980/01/25 05:54:07.468
1,1651,28250,-23.420,4.000,,-4.000,1980/01/25 05:54:08.390
1,1706,29188,-24.020,3.900,,-3.900,1980/01/25 05:54:09.328
1,1761,30110,-24.640,4.000,,-4.000,1980/01/25 05:54:10.250
1,1816,31125,-25.320,4.000,,-4.000,1980/01/25 05:54:11.265
1,1871,32031,-25.930,3.900,,-3.900,1980/01/25 05:54:12.171
1,1926,32953,-26.550,3.900,,-3.900,1980/01/25 05:54:13.093
1,1981,33938,-27.190,4.000,,-4.000,1980/01/25 05:54:14.078
1,2036,34828,-27.790,3.900,,-3.900,1980/01/25 05:54:14.968
1,2091,35750,-28.400,4.000,,-4.000,1980/01/25 05:54:15.890
1,2146,36688,-29.030,3.900,,-3.900,1980/01/25 05:54:16.828
1,2201,37703,-29.700,3.900,,-3.900,1980/01/25 05:54:17.843
1,2256,38578,-30.290,3.900,,-3.900,1980/01/25 05:54:18.718
1,2311,39500,-30.900,3.900,,-3.900,1980/01/25 05:54:19.640
1,2366,40422,-31.520,3.900,,-3.900,1980/01/25 05:54:20.562
1,2421,41453,-32.200,3.900,,-3.900,1980/01/25 05:54:21.593
1,2476,42406,-32.840,3.900,,-3.900,1980/01/25 05:54:22.546
1,2531,43328,-33.460,3.900,,-3.900,1980/01/25 05:54:23.468
1,2586,44344,-34.130,3.900,,-3.900,1980/01/25 05:54:24.484
1,2641,45250,-34.720,3.900,,-3.900,1980/01/25 05:54:25.390
1,2696,46156,-35.340,3.800,,-3.800,1980/01/25 05:54:26.296
1,2751,47047,-35.920,3.900,,-3.900,1980/01/25 05:54:27.187
1,2806,48063,-36.610,3.900,,-3.900,1980/01/25 05:54:28.203
1,2861,49000,-37.220,3.900,,-3.900,1980/01/25 05:54:29.140
1,2916,49891,-37.810,3.900,,-3.900,1980/01/25 05:54:30.031
1,2971,50938,-38.440,3.900,,-3.900,1980/01/25 05:54:31.078
1,3026,51860,-39.120,3.800,,-3.800,1980/01/25 05:54:32.000
1,3081,52781,-39.740,3.800,,-3.800,1980/01/25 05:54:32.921
1,3136,53688,-40.340,3.800,,-3.800,1980/01/25 05:54:33.828
1,3191,54703,-41.030,3.800,,-3.800,1980/01/25 05:54:34.843
1,3246,55625,-41.640,3.800,,-3.800,1980/01/25 05:54:35.765
1,3301,56563,-42.250,3.800,,-3.800,1980/01/25 05:54:36.703
1,3356,57453,-42.840,3.800,,-3.800,1980/01/25 05:54:37.593
1,3411,58516,-43.570,3.700,,-3.700,1980/01/25 05:54:38.656
1,3466,59391,-44.140,3.700,,-3.700,1980/01/25 05:54:39.531
1,3521,60313,-44.750,3.600,,-3.600,1980/01/25 05:54:40.453
1,3576,61360,-45.460,3.600,,-3.600,1980/01/25 05:54:41.500
1,3631,62360,-46.120,3.600,,-3.600,1980/01/25 05:54:42.500
1,3686,63266,-46.730,3.600,,-3.600,1980/01/25 05:54:43.406
1,3741,64156,-47.320,3.600,,-3.600,1980/01/25 05:54:44.296
1,3796,65219,-48.030,3.500,,-3.500,1980/01/25 05:54:45.359
1,3851,66141,-48.650,3.600,,-3.600,1980/01/25 05:54:46.281
1,3906,67031,-49.230,3.600,,-3.600,1980/01/25 05:54:47.171
1,3961,67969,-49.850,3.600,,-3.600,1980/01/25 05:54:48.109
1,4016,69031,-50.570,3.600,,-3.600,1980/01/25 05:54:49.171
1,4071,69969,-51.190,3.600,,-3.600,1980/01/25 05:54:50.109
1,4126,70922,-51.820,3.600,,-3.600,1980/01/25 05:54:51.062
1,4181,72000,-52.530,3.600,,-3.600,1980/01/25 05:54:52.140
1,4236,72906,-53.140,3.600,,-3.600,1980/01/25 05:54:53.046
1,4291,73828,-53.760,3.600,,-3.600,1980/01/25 05:54:53.968
1,4346,74719,-54.350,3.600,,-3.600,1980/01/25 05:54:54.859
1,4401,75781,-55.050,3.600,,-3.600,1980/01/25 05:54:55.921
1,4456,76672,-55.650,3.600,,-3.600,1980/01/25 05:54:56.812
1,4511,77594,-56.270,3.600,,-3.600,1980/01/25 05:54:57.734
1,4566,78563,-56.910,3.600,,-3.600,1980/01/25 05:54:58.703
1,4621,79656,-57.640,3.600,,-3.600,1980/01/25 05:54:59.796
1,4676,80547,-58.230,3.600,,-3.600,1980/01/25 05:55:00.687
1,4731,81516,-58.870,3.600,,-3.600,1980/01/25 05:55:01.656
1,4786,82625,-59.610,3.500,,-3.500,1980/01/25 05:55:02.765
1,4841,83531,-60.210,3.500,,-3.500,1980/01/25 05:55:03.671
1,4896,84438,-60.810,3.500,,-3.500,1980/01/25 05:55:04.578
1,4951,85375,-61.440,3.500,,-3.500,1980/01/25 05:55:05.515
1,5006,86438,-62.150,3.500,,-3.500,1980/01/25 05:55:06.578
1,5061,87328,-62.750,3.600,,-3.600,1980/01/25 05:55:07.468
1,5116,88235,-63.340,3.600,,-3.600,1980/01/25 05:55:08.375
1,5171,89328,-63.960,3.600,,-3.600,1980/01/25 05:55:09.468
1,5226,90266,-64.700,3.600,,-3.600,1980/01/25 05:55:10.406
1,5281,91172,-65.300,3.600,,-3.600,1980/01/25 05:55:11.312
1,5336,92141,-65.960,3.600,,-3.600,1980/01/25 05:55:12.281
1,5391,93250,-66.690,3.600,,-3.600,1980/01/25 05:55:13.390
1,5446,94125,-67.270,3.600,,-3.600,1980/01/25 05:55:14.265
1,5501,95047,-67.880,3.600,,-3.600,1980/01/25 05:55:15.187
1,5556,95922,-68.470,3.600,,-3.600,1980/01/25 05:55:16.062
1,5611,96985,-69.170,3.600,,-3.600,1980/01/25 05:55:17.125
1,5666,97938,-69.800,3.600,,-3.600,1980/01/25 05:55:18.078
1,5721,98891,-70.440,3.600,,-3.600,1980/01/25 05:55:19.031
1,5776,100016,-71.190,3.600,,-3.600,1980/01/25 05:55:20.156
1,5831,100922,-71.800,3.600,,-3.600,1980/01/25 05:55:21.062
1,5886,101860,-72.420,3.600,,-3.600,1980/01/25 05:55:22.000
1,5941,102766,-73.030,3.600,,-3.600,1980/01/25 05:55:22.906
1,5996,103860,-73.740,3.600,,-3.600,1980/01/25 05:55:24.000
1,6051,104797,-74.370,3.600,,-3.600,1980/01/25 05:55:24.937
1,6106,105703,-74.990,3.600,,-3.600,1980/01/25 05:55:25.843
1,6161,106641,-75.610,3.600,,-3.600,1980/01/25 05:55:26.781
1,6216,107735,-76.330,3.600,,-3.600,1980/01/25 05:55:27.875
1,6271,108703,-76.970,3.600,,-3.600,1980/01/25 05:55:28.843
1,6326,109625,-77.600,3.600,,-3.600,1980/01/25 05:55:29.765
1,6381,110735,-78.330,3.600,,-3.600,1980/01/25 05:55:30.875
1,6436,111625,-78.920,3.600,,-3.600,1980/01/25 05:55:31.765
1,6491,112516,-79.500,3.600,,-3.600,1980/01/25 05:55:32.656
1,6546,113406,-80.110,3.500,,-3.500,1980/01/25 05:55:33.546
1,6601,114516,-80.850,3.600,,-3.600,1980/01/25 05:55:34.656
1,6656,115453,-81.470,3.500,,-3.500,1980/01/25 05:55:35.593
1,6711,116360,-82.070,3.600,,-3.600,1980/01/25 05:55:36.500
1,6766,117297,-82.700,3.600,,-3.600,1980/01/25 05:55:37.437
1,6821,118391,-83.420,3.600,,-3.600,1980/01/25 05:55:38.531
1,6876,119328,-84.050,3.600,,-3.600,1980/01/25 05:55:39.468
1,6931,120203,-84.630,3.600,,-3.600,1980/01/25 05:55:40.343
1,6986,121344,-85.400,3.600,,-3.600,1980/01/25 05:55:41.484
1,7041,122250,-85.990,3.600,,-3.600,1980/01/25 05:55:42.390
1,7096,123172,-86.590,3.600,,-3.600,1980/01/25 05:55:43.312
1,7151,124031,-87.180,3.600,,-3.600,1980/01/25 05:55:44.171
1,7206,125141,-87.920,3.600,,-3.600,1980/01/25 05:55:45.281
1,7261,126063,-88.530,3.600,,-3.600,1980/01/25 05:55:46.203
1,7316,126985,-89.150,3.600,,-3.600,1980/01/25 05:55:47.125
1,7371,128110,-89.750,3.600,,-3.600,1980/01/25 05:55:48.250
1,7426,129031,-90.510,3.600,,-3.600,1980/01/25 05:55:49.171
1,7481,129938,-91.110,3.600,,-3.600,1980/01/25 05:55:50.078
1,7536,130891,-91.760,3.500,,-3.500,1980/01/25 05:55:51.031
1,7591,132047,-92.520,3.500,,-3.500,1980/01/25 05:55:52.187
1,7646,132985,-93.150,3.500,,-3.500,1980/01/25 05:55:53.125
1,7701,133938,-93.780,3.600,,-3.600,1980/01/25 05:55:54.078
1,7756,134813,-94.360,3.600,,-3.600,1980/01/25 05:55:54.953
1,7811,135938,-95.100,3.600,,-3.600,1980/01/25 05:55:56.078
1,7866,136844,-95.710,3.600,,-3.600,1980/01/25 05:55:56.984
1,7921,137735,-96.300,3.600,,-3.600,1980/01/25 05:55:57.875
1,7976,138922,-97.090,3.600,,-3.600,1980/01/25 05:55:59.062
1,8031,139813,-97.700,3.600,,-3.600,1980/01/25 05:55:59.953
1,8086,140703,-98.280,3.600,,-3.600,1980/01/25 05:56:00.843
1,8141,141563,-98.860,3.700,,-3.700,1980/01/25 05:56:01.703
1,8196,142735,-99.640,3.600,,-3.600,1980/01/25 05:56:02.875
1,8251,143656,-100.240,3.600,,-3.600,1980/01/25 05:56:03.796
1,8306,144563,-100.850,3.600,,-3.600,1980/01/25 05:56:04.703
1,8361,145485,-101.460,3.600,,-3.600,1980/01/25 05:56:05.625
1,8416,146625,-102.230,3.600,,-3.600,1980/01/25 05:56:06.765
1,8471,147531,-102.830,3.600,,-3.600,1980/01/25 05:56:07.671
1,8526,148406,-103.420,3.600,,-3.600,1980/01/25 05:56:08.546
1,8581,149547,-104.160,3.500,,-3.500,1980/01/25 05:56:09.687
1,8636,150438,-104.760,3.500,,-3.500,1980/01/25 05:56:10.578
1,8691,151360,-105.360,3.500,,-3.500,1980/01/25 05:56:11.500
1,8746,152266,-105.980,3.500,,-3.500,1980/01/25 05:56:12.406
1,8801,153453,-106.760,3.500,,-3.500,1980/01/25 05:56:13.593
1,8856,154375,-107.390,3.400,,-3.400,1980/01/25 05:56:14.515
1,8911,155266,-107.980,3.400,,-3.400,1980/01/25 05:56:15.406
1,8966,156172,-108.580,3.400,,-3.400,1980/01/25 05:56:16.312
1,9021,157360,-109.370,3.300,,-3.300,1980/01/25 05:56:17.500
1,9076,158313,-110.000,3.200,,-3.200,1980/01/25 05:56:18.453
1,9131,159203,-110.600,3.000,,-3.000,1980/01/25 05:56:19.343
1,9186,160391,-111.390,2.600,,-2.600,1980/01/25 05:56:20.531
1,9241,161313,-112.000,2.000,,-2.000,1980/01/25 05:56:21.453
1,9283,162047,-112.460,,0.200,0.200,1980/01/25 05:56:22.187

File: Team 3 LDPE 40-T2.csv
Cycle,Test Point,Time (ms),Distance (mm),Up (N),Down (N),Force Data (N),Date / Time
1,1,0,27.190,0.500,,-0.500,1980/01/05 05:01:35.203
1,48,781,26.680,0.900,,-0.900,1980/01/05 05:01:35.984
1,95,1656,26.090,1.400,,-1.400,1980/01/05 05:01:36.859
1,142,2406,25.600,1.900,,-1.900,1980/01/05 05:01:37.609
1,189,3156,25.100,2.300,,-2.300,1980/01/05 05:01:38.359
1,236,3937,24.580,2.600,,-2.600,1980/01/05 05:01:39.140
1,283,4781,24.010,2.900,,-2.900,1980/01/05 05:01:39.984
1,330,5547,23.520,3.200,,-3.200,1980/01/05 05:01:40.750
1,377,6297,23.000,3.400,,-3.400,1980/01/05 05:01:41.500
1,424,7031,22.510,3.600,,-3.600,1980/01/05 05:01:42.234
1,471,7843,21.970,3.700,,-3.700,1980/01/05 05:01:43.046
1,518,8578,21.480,3.800,,-3.800,1980/01/05 05:01:43.781
1,565,9390,20.960,4.000,,-4.000,1980/01/05 05:01:44.593
1,612,10187,20.410,4.000,,-4.000,1980/01/05 05:01:45.390
1,659,11047,19.840,4.100,,-4.100,1980/01/05 05:01:46.250
1,706,11875,19.300,4.200,,-4.200,1980/01/05 05:01:47.078
1,753,12625,18.800,4.200,,-4.200,1980/01/05 05:01:47.828
1,800,13390,18.290,4.300,,-4.300,1980/01/05 05:01:48.593
1,847,14156,17.770,4.300,,-4.300,1980/01/05 05:01:49.359
1,894,14984,17.220,4.400,,-4.400,1980/01/05 05:01:50.187
1,941,15781,16.700,4.400,,-4.400,1980/01/05 05:01:50.984
1,988,16531,16.190,4.400,,-4.400,1980/01/05 05:01:51.734
1,1035,17312,15.670,4.500,,-4.500,1980/01/05 05:01:52.515
1,1082,18125,15.130,4.500,,-4.500,1980/01/05 05:01:53.328
1,1129,18890,14.620,4.500,,-4.500,1980/01/05 05:01:54.093
1,1176,19672,14.100,4.600,,-4.600,1980/01/05 05:01:54.875
1,1223,20437,13.600,4.600,,-4.600,1980/01/05 05:01:55.640
1,1270,21281,13.030,4.600,,-4.600,1980/01/05 05:01:56.484
1,1317,22062,12.510,4.600,,-4.600,1980/01/05 05:01:57.265
1,1364,22797,12.020,4.700,,-4.700,1980/01/05 05:01:58.000
1,1411,23609,11.480,4.700,,-4.700,1980/01/05 05:01:58.812
1,1458,24453,10.910,4.700,,-4.700,1980/01/05 05:01:59.656
1,1505,25218,10.410,4.700,,-4.700,1980/01/05 05:02:00.421
1,1552,26000,9.880,4.800,,-4.800,1980/01/05 05:02:01.203
1,1599,26781,9.370,4.800,,-4.800,1980/01/05 05:02:01.984
1,1646,27515,8.870,4.800,,-4.800,1980/01/05 05:02:02.718
1,1693,28375,8.310,4.900,,-4.900,1980/01/05 05:02:03.578
1,1740,29140,7.800,4.900,,-4.900,1980/01/05 05:02:04.343
1,1787,29922,7.280,4.900,,-4.900,1980/01/05 05:02:05.125
1,1834,30687,6.770,4.900,,-4.900,1980/01/05 05:02:05.890
1,1881,31547,6.190,5.000,,-5.000,1980/01/05 05:02:06.750
1,1928,32281,5.700,5.000,,-5.000,1980/01/05 05:02:07.484
1,1975,33078,5.170,5.000,,-5.000,1980/01/05 05:02:08.281
1,2022,33843,4.660,5.000,,-5.000,1980/01/05 05:02:09.046
1,2069,34703,4.090,5.100,,-5.100,1980/01/05 05:02:09.906
1,2116,35468,3.580,5.100,,-5.100,1980/01/05 05:02:10.671
1,2163,36218,3.080,5.100,,-5.100,1980/01/05 05:02:11.421
1,2210,37015,2.550,5.200,,-5.200,1980/01/05 05:02:12.218
1,2257,37906,1.960,5.200,,-5.200,1980/01/05 05:02:13.109
1,2304,38656,1.460,5.200,,-5.200,1980/01/05 05:02:13.859
1,2351,39437,0.940,5.300,,-5.300,1980/01/05 05:02:14.640
1,2398,40172,0.450,5.300,,-5.300,1980/01/05 05:02:15.375
1,2445,40953,-0.060,5.300,,-5.300,1980/01/05 05:02:16.156
1,2492,41812,-0.630,5.300,,-5.300,1980/01/05 05:02:17.015
1,2539,42547,-1.120,5.400,,-5.400,1980/01/05 05:02:17.750
1,2586,43312,-1.620,5.400,,-5.400,1980/01/05 05:02:18.515
1,2633,44093,-2.150,5.400,,-5.400,1980/01/05 05:02:19.296
1,2680,44968,-2.730,5.500,,-5.500,1980/01/05 05:02:20.171
1,2727,45797,-3.280,5.500,,-5.500,1980/01/05 05:02:21.000
1,2774,46578,-3.800,5.600,,-5.600,1980/01/05 05:02:21.781
1,2821,47328,-4.310,5.600,,-5.600,1980/01/05 05:02:22.531
1,2868,48218,-4.890,5.600,,-5.600,1980/01/05 05:02:23.421
1,2915,48968,-5.390,5.700,,-5.700,1980/01/05 05:02:24.171
1,2962,49765,-5.920,5.700,,-5.700,1980/01/05 05:02:24.968
1,3009,50547,-6.450,5.700,,-5.700,1980/01/05 05:02:25.750
1,3056,51453,-7.050,5.800,,-5.800,1980/01/05 05:02:26.656
1,3103,52203,-7.540,5.800,,-5.800,1980/01/05 05:02:27.406
1,3150,52968,-8.060,5.900,,-5.900,1980/01/05 05:02:28.171
1,3197,53718,-8.560,5.900,,-5.900,1980/01/05 05:02:28.921
1,3244,54500,-9.070,5.900,,-5.900,1980/01/05 05:02:29.703
1,3291,55359,-9.660,6.000,,-6.000,1980/01/05 05:02:30.562
1,3338,56156,-10.180,6.000,,-6.000,1980/01/05 05:02:31.359
1,3385,56922,-10.680,6.000,,-6.000,1980/01/05 05:02:32.125
1,3432,57672,-11.190,6.000,,-6.000,1980/01/05 05:02:32.875
1,3479,58547,-11.770,6.100,,-6.100,1980/01/05 05:02:33.750
1,3526,59312,-12.280,6.100,,-6.100,1980/01/05 05:02:34.515
1,3573,60078,-12.800,6.100,,-6.100,1980/01/05 05:02:35.281
1,3620,60843,-13.300,6.200,,-6.200,1980/01/05 05:02:36.046
1,3667,61781,-13.930,6.200,,-6.200,1980/01/05 05:02:36.984
1,3714,62531,-14.420,6.200,,-6.200,1980/01/05 05:02:37.734
1,3761,63312,-14.950,6.200,,-6.200,1980/01/05 05:02:38.515
1,3808,64078,-15.450,6.300,,-6.300,1980/01/05 05:02:39.281
1,3855,65015,-16.080,6.300,,-6.300,1980/01/05 05:02:40.218
1,3902,65797,-16.610,6.300,,-6.300,1980/01/05 05:02:41.000
1,3949,66562,-17.110,6.400,,-6.400,1980/01/05 05:02:41.765
1,3996,67343,-17.620,6.400,,-6.400,1980/01/05 05:02:42.546
1,4043,68093,-18.140,6.400,,-6.400,1980/01/05 05:02:43.296
1,4090,69000,-18.730,6.400,,-6.400,1980/01/05 05:02:44.203
1,4137,69750,-19.230,6.400,,-6.400,1980/01/05 05:02:44.953
1,4184,70562,-19.770,6.400,,-6.400,1980/01/05 05:02:45.765
1,4231,71343,-20.300,6.500,,-6.500,1980/01/05 05:02:46.546
1,4278,72265,-20.910,6.500,,-6.500,1980/01/05 05:02:47.468
1,4325,73031,-21.410,6.500,,-6.500,1980/01/05 05:02:48.234
1,4372,73812,-21.940,6.500,,-6.500,1980/01/05 05:02:49.015
1,4419,74625,-22.470,6.500,,-6.500,1980/01/05 05:02:49.828
1,4466,75547,-23.090,6.600,,-6.600,1980/01/05 05:02:50.750
1,4513,76328,-23.610,6.600,,-6.600,1980/01/05 05:02:51.531
1,4560,77109,-24.140,6.600,,-6.600,1980/01/05 05:02:52.312
1,4607,77922,-24.670,6.600,,-6.600,1980/01/05 05:02:53.125
1,4654,78890,-25.310,6.700,,-6.700,1980/01/05 05:02:54.093
1,4701,79703,-25.860,6.700,,-6.700,1980/01/05 05:02:54.906
1,4748,80515,-26.410,6.700,,-6.700,1980/01/05 05:02:55.718
1,4795,81297,-26.920,6.700,,-6.700,1980/01/05 05:02:56.500
1,4842,82093,-27.440,6.700,,-6.700,1980/01/05 05:02:57.296
1,4889,83062,-28.090,6.700,,-6.700,1980/01/05 05:02:58.265
1,4936,83890,-28.640,6.700,,-6.700,1980/01/05 05:02:59.093
1,4983,84640,-29.150,6.800,,-6.800,1980/01/05 05:02:59.843
1,5030,85390,-29.640,6.800,,-6.800,1980/01/05 05:03:00.593
1,5077,86312,-30.260,6.800,,-6.800,1980/01/05 05:03:01.515
1,5124,87078,-30.770,6.800,,-6.800,1980/01/05 05:03:02.281
1,5171,87859,-31.290,6.800,,-6.800,1980/01/05 05:03:03.062
1,5218,88593,-31.780,6.800,,-6.800,1980/01/05 05:03:03.796
1,5265,89547,-32.420,6.800,,-6.800,1980/01/05 05:03:04.750
1,5312,90312,-32.920,6.800,,-6.800,1980/01/05 05:03:05.515
1,5359,91078,-33.440,6.900,,-6.900,1980/01/05 05:03:06.281
1,5406,91906,-33.990,6.900,,-6.900,1980/01/05 05:03:07.109
1,5453,92843,-34.490,6.900,,-6.900,1980/01/05 05:03:08.046
1,5500,93656,-35.150,6.900,,-6.900,1980/01/05 05:03:08.859
1,5547,94422,-35.660,6.900,,-6.900,1980/01/05 05:03:09.625
1,5594,95187,-36.160,6.900,,-6.900,1980/01/05 05:03:10.390
1,5641,95968,-36.690,6.900,,-6.900,1980/01/05 05:03:11.171
1,5688,96922,-37.330,6.900,,-6.900,1980/01/05 05:03:12.125
1,5735,97703,-37.840,6.900,,-6.900,1980/01/05 05:03:12.906
1,5782,98437,-38.340,6.900,,-6.900,1980/01/05 05:03:13.640
1,5829,99218,-38.860,6.900,,-6.900,1980/01/05 05:03:14.421
1,5876,100172,-39.480,6.900,,-6.900,1980/01/05 05:03:15.375
1,5923,100968,-40.020,6.900,,-6.900,1980/01/05 05:03:16.171
1,5970,101734,-40.530,6.900,,-6.900,1980/01/05 05:03:16.937
1,6017,102500,-41.030,6.900,,-6.900,1980/01/05 05:03:17.703
1,6064,103453,-41.660,6.900,,-6.900,1980/01/05 05:03:18.656
1,6111,104218,-42.190,6.900,,-6.900,1980/01/05 05:03:19.421
1,6158,105015,-42.710,7.000,,-7.000,1980/01/05 05:03:20.218
1,6205,105797,-43.230,6.900,,-6.900,1980/01/05 05:03:21.000
1,6252,106750,-43.720,7.000,,-7.000,1980/01/05 05:03:21.953
1,6299,107515,-44.380,6.900,,-6.900,1980/01/05 05:03:22.718
1,6346,108250,-44.870,7.000,,-7.000,1980/01/05 05:03:23.453
1,6393,109015,-45.370,6.900,,-6.900,1980/01/05 05:03:24.218
1,6440,109781,-45.880,6.900,,-6.900,1980/01/05 05:03:24.984
1,6487,110734,-46.520,7.000,,-7.000,1980/01/05 05:03:25.937
1,6534,111500,-47.030,7.000,,-7.000,1980/01/05 05:03:26.703
1,6581,112281,-47.540,7.000,,-7.000,1980/01/05 05:03:27.484
1,6628,113062,-48.070,7.000,,-7.000,1980/01/05 05:03:28.265
1,6675,114047,-48.710,7.000,,-7.000,1980/01/05 05:03:29.250
1,6722,114828,-49.240,7.000,,-7.000,1980/01/05 05:03:30.031
1,6769,115640,-49.780,6.900,,-6.900,1980/01/05 05:03:30.843
1,6816,116390,-50.280,6.900,,-6.900,1980/01/05 05:03:31.593
1,6863,117422,-50.970,6.900,,-6.900,1980/01/05 05:03:32.625
1,6910,118234,-51.510,6.900,,-6.900,1980/01/05 05:03:33.437
1,6957,119000,-52.020,6.900,,-6.900,1980/01/05 05:03:34.203
1,7004,119750,-52.530,6.900,,-6.900,1980/01/05 05:03:34.953
1,7051,120500,-53.020,6.800,,-6.800,1980/01/05 05:03:35.703
1,7098,121453,-53.660,6.800,,-6.800,1980/01/05 05:03:36.656
1,7145,122218,-54.180,6.800,,-6.800,1980/01/05 05:03:37.421
1,7192,122968,-54.660,6.800,,-6.800,1980/01/05 05:03:38.171
1,7239,123812,-55.230,6.700,,-6.700,1980/01/05 05:03:39.015
1,7286,124797,-55.880,6.600,,-6.600,1980/01/05 05:03:40.000
1,7333,125562,-56.390,6.500,,-6.500,1980/01/05 05:03:40.765
1,7380,126375,-56.930,6.400,,-6.400,1980/01/05 05:03:41.578
1,7427,127156,-57.460,6.200,,-6.200,1980/01/05 05:03:42.359
1,7474,128156,-58.120,6.000,,-6.000,1980/01/05 05:03:43.359
1,7521,128953,-58.640,5.900,,-5.900,1980/01/05 05:03:44.156
1,7568,129734,-59.170,5.700,,-5.700,1980/01/05 05:03:44.937
1,7615,130515,-59.680,5.500,,-5.500,1980/01/05 05:03:45.718
1,7662,131515,-60.350,5.200,,-5.200,1980/01/05 05:03:46.718
1,7709,132281,-60.860,4.900,,-4.900,1980/01/05 05:03:47.484
1,7756,133093,-61.410,4.500,,-4.500,1980/01/05 05:03:48.296
1,7803,133875,-61.930,4.200,,-4.200,1980/01/05 05:03:49.078
1,7850,134609,-62.410,0.100,,-0.100,1980/01/05 05:03:49.812
1,7897,135625,-63.090,0.100,,-0.100,1980/01/05 05:03:50.828
1,7917,135953,-63.280,0.100,,-0.100,1980/01/05 05:03:51.156