Folder: Rowan-Classes/1st-Semester-Fall-2021/FEC1/LDPE Tensile Strength Tests (part 3)

File: Team 3 LDPE 60 3.csv
Cycle,Test Point,Time (ms),Distance (mm),Up (N),Down (N),Force Data (N),Date / Time
1,1,0,0.000,,,0.000,1980/01/25 05:57:25.546
1,33,610,-0.590,0.400,,-0.400,1980/01/25 05:57:26.156
1,65,1141,-1.120,1.000,,-1.000,1980/01/25 05:57:26.687
1,97,1750,-1.730,1.600,,-1.600,1980/01/25 05:57:27.296
1,129,2329,-2.300,2.100,,-2.100,1980/01/25 05:57:27.875
1,161,2875,-2.850,2.500,,-2.500,1980/01/25 05:57:28.421
1,193,3407,-3.370,2.800,,-2.800,1980/01/25 05:57:28.953
1,225,3969,-3.950,3.100,,-3.100,1980/01/25 05:57:29.515
1,257,4547,-4.520,3.300,,-3.300,1980/01/25 05:57:30.093
1,289,5157,-5.080,3.500,,-3.500,1980/01/25 05:57:30.703
1,321,5704,-5.670,3.600,,-3.600,1980/01/25 05:57:31.250
1,353,6250,-6.230,3.600,,-3.600,1980/01/25 05:57:31.796
1,385,6844,-6.810,3.700,,-3.700,1980/01/25 05:57:32.390
1,417,7375,-7.350,3.800,,-3.800,1980/01/25 05:57:32.921
1,449,7922,-7.900,3.800,,-3.800,1980/01/25 05:57:33.468
1,481,8438,-8.410,3.900,,-3.900,1980/01/25 05:57:33.984
1,513,9110,-9.080,3.900,,-3.900,1980/01/25 05:57:34.656
1,545,9704,-9.670,3.900,,-3.900,1980/01/25 05:57:35.250
1,577,10250,-10.210,3.900,,-3.900,1980/01/25 05:57:35.796
1,609,10797,-10.770,3.900,,-3.900,1980/01/25 05:57:36.343
1,641,11344,-11.310,4.000,,-4.000,1980/01/25 05:57:36.890
1,673,11875,-11.840,4.000,,-4.000,1980/01/25 05:57:37.421
1,705,12438,-12.410,4.000,,-4.000,1980/01/25 05:57:37.984
1,737,12969,-12.940,4.000,,-4.000,1980/01/25 05:57:38.515
1,769,13547,-13.520,4.000,,-4.000,1980/01/25 05:57:39.093
1,801,14063,-14.030,4.000,,-4.000,1980/01/25 05:57:39.609
1,833,14641,-14.600,4.000,,-4.000,1980/01/25 05:57:40.187
1,865,15172,-15.140,4.100,,-4.100,1980/01/25 05:57:40.718
1,897,15766,-15.730,4.100,,-4.100,1980/01/25 05:57:41.312
1,929,16329,-16.290,4.100,,-4.100,1980/01/25 05:57:41.875
1,961,16891,-16.860,4.100,,-4.100,1980/01/25 05:57:42.437
1,993,17422,-17.380,4.100,,-4.100,1980/01/25 05:57:42.968
1,1025,17922,-17.870,4.200,,-4.200,1980/01/25 05:57:43.468
1,1057,18454,-18.410,4.200,,-4.200,1980/01/25 05:57:44.000
1,1089,19079,-18.960,4.200,,-4.200,1980/01/25 05:57:44.625
1,1121,19610,-19.580,4.300,,-4.300,1980/01/25 05:57:45.156
1,1153,20157,-20.130,4.300,,-4.300,1980/01/25 05:57:45.703
1,1185,20688,-20.640,4.300,,-4.300,1980/01/25 05:57:46.234
1,1217,21250,-21.190,4.400,,-4.400,1980/01/25 05:57:46.796
1,1249,21782,-21.720,4.400,,-4.400,1980/01/25 05:57:47.328
1,1281,22297,-22.260,4.400,,-4.400,1980/01/25 05:57:47.843
1,1313,22922,-22.880,4.500,,-4.500,1980/01/25 05:57:48.468
1,1345,23485,-23.450,4.500,,-4.500,1980/01/25 05:57:49.031
1,1377,24016,-23.980,4.500,,-4.500,1980/01/25 05:57:49.562
1,1409,24563,-24.520,4.600,,-4.600,1980/01/25 05:57:50.109
1,1441,25094,-25.040,4.600,,-4.600,1980/01/25 05:57:50.640
1,1473,25625,-25.560,4.700,,-4.700,1980/01/25 05:57:51.171
1,1505,26219,-26.170,4.700,,-4.700,1980/01/25 05:57:51.765
1,1537,26797,-26.750,4.800,,-4.800,1980/01/25 05:57:52.343
1,1569,27329,-27.290,4.800,,-4.800,1980/01/25 05:57:52.875
1,1601,27860,-27.830,4.900,,-4.900,1980/01/25 05:57:53.406
1,1633,28407,-28.350,4.900,,-4.900,1980/01/25 05:57:53.953
1,1665,28954,-28.900,4.900,,-4.900,1980/01/25 05:57:54.500
1,1697,29579,-29.530,5.000,,-5.000,1980/01/25 05:57:55.125
1,1729,30141,-30.070,5.100,,-5.100,1980/01/25 05:57:55.687
1,1761,30672,-30.620,5.100,,-5.100,1980/01/25 05:57:56.218
1,1793,31188,-31.140,5.100,,-5.100,1980/01/25 05:57:56.734
1,1825,31719,-31.660,5.200,,-5.200,1980/01/25 05:57:57.265
1,1857,32219,-32.180,5.200,,-5.200,1980/01/25 05:57:57.765
1,1889,32860,-32.710,5.300,,-5.300,1980/01/25 05:57:58.406
1,1921,33422,-33.380,5.400,,-5.400,1980/01/25 05:57:58.968
1,1953,33969,-33.920,5.400,,-5.400,1980/01/25 05:57:59.515
1,1985,34469,-34.430,5.500,,-5.500,1980/01/25 05:58:00.015
1,2017,35016,-34.960,5.500,,-5.500,1980/01/25 05:58:00.562
1,2049,35563,-35.510,5.600,,-5.600,1980/01/25 05:58:01.109
1,2081,36094,-36.040,5.600,,-5.600,1980/01/25 05:58:01.640
1,2113,36766,-36.710,5.600,,-5.600,1980/01/25 05:58:02.312
1,2145,37344,-37.300,5.700,,-5.700,1980/01/25 05:58:02.890
1,2177,37891,-37.840,5.700,,-5.700,1980/01/25 05:58:03.437
1,2209,38454,-38.380,5.800,,-5.800,1980/01/25 05:58:04.000
1,2241,38985,-38.920,5.800,,-5.800,1980/01/25 05:58:04.531
1,2273,39579,-39.520,5.900,,-5.900,1980/01/25 05:58:05.125
1,2305,40219,-40.160,5.900,,-5.900,1980/01/25 05:58:05.765
1,2337,40766,-40.710,6.000,,-6.000,1980/01/25 05:58:06.312
1,2369,41282,-41.240,6.000,,-6.000,1980/01/25 05:58:06.828
1,2401,41829,-41.770,6.000,,-6.000,1980/01/25 05:58:07.375
1,2433,42360,-42.300,6.100,,-6.100,1980/01/25 05:58:07.906
1,2465,42875,-42.820,6.100,,-6.100,1980/01/25 05:58:08.421
1,2497,43516,-43.450,6.100,,-6.100,1980/01/25 05:58:09.062
1,2529,44079,-44.020,6.200,,-6.200,1980/01/25 05:58:09.625
1,2561,44610,-44.560,6.200,,-6.200,1980/01/25 05:58:10.156
1,2593,45125,-45.080,6.200,,-6.200,1980/01/25 05:58:10.671
1,2625,45672,-45.600,6.300,,-6.300,1980/01/25 05:58:11.218
1,2657,46204,-46.140,6.300,,-6.300,1980/01/25 05:58:11.750
1,2689,46844,-46.660,6.300,,-6.300,1980/01/25 05:58:12.390
1,2721,47391,-47.320,6.400,,-6.400,1980/01/25 05:58:12.937
1,2753,47922,-47.860,6.400,,-6.400,1980/01/25 05:58:13.468
1,2785,48454,-48.390,6.400,,-6.400,1980/01/25 05:58:14.000
1,2817,49016,-48.960,6.400,,-6.400,1980/01/25 05:58:14.562
1,2849,49516,-49.450,6.400,,-6.400,1980/01/25 05:58:15.062
1,2881,50047,-49.990,6.500,,-6.500,1980/01/25 05:58:15.593
1,2913,50735,-50.650,6.400,,-6.400,1980/01/25 05:58:16.281
1,2945,51250,-51.200,6.500,,-6.500,1980/01/25 05:58:16.796
1,2977,51782,-51.720,6.500,,-6.500,1980/01/25 05:58:17.328
1,3009,52313,-52.240,6.500,,-6.500,1980/01/25 05:58:17.859
1,3041,52860,-52.800,6.500,,-6.500,1980/01/25 05:58:18.406
1,3073,53422,-53.350,6.500,,-6.500,1980/01/25 05:58:18.968
1,3105,54110,-54.040,6.500,,-6.500,1980/01/25 05:58:19.656
1,3137,54704,-54.630,6.500,,-6.500,1980/01/25 05:58:20.250
1,3169,55250,-55.180,6.600,,-6.600,1980/01/25 05:58:20.796
1,3201,55750,-55.690,6.600,,-6.600,1980/01/25 05:58:21.296
1,3233,56313,-56.240,6.600,,-6.600,1980/01/25 05:58:21.859
1,3265,56844,-56.770,6.600,,-6.600,1980/01/25 05:58:22.390
1,3297,57547,-57.480,6.600,,-6.600,1980/01/25 05:58:23.093
1,3329,58110,-58.050,6.600,,-6.600,1980/01/25 05:58:23.656
1,3361,58641,-58.570,6.600,,-6.600,1980/01/25 05:58:24.187
1,3393,59219,-59.150,6.600,,-6.600,1980/01/25 05:58:24.765
1,3425,59766,-59.690,6.600,,-6.600,1980/01/25 05:58:25.312
1,3457,60297,-60.230,6.600,,-6.600,1980/01/25 05:58:25.843
1,3489,60954,-60.730,6.600,,-6.600,1980/01/25 05:58:26.500
1,3521,61469,-61.390,6.600,,-6.600,1980/01/25 05:58:27.015
1,3553,62000,-61.920,6.600,,-6.600,1980/01/25 05:58:27.546
1,3585,62547,-62.480,6.600,,-6.600,1980/01/25 05:58:28.093
1,3617,63063,-62.970,6.600,,-6.600,1980/01/25 05:58:28.609
1,3649,63610,-63.540,6.600,,-6.600,1980/01/25 05:58:29.156
1,3681,64188,-64.110,6.600,,-6.600,1980/01/25 05:58:29.734
1,3713,64891,-64.810,6.600,,-6.600,1980/01/25 05:58:30.437
1,3745,65422,-65.350,6.600,,-6.600,1980/01/25 05:58:30.968
1,3777,65985,-65.910,6.600,,-6.600,1980/01/25 05:58:31.531
1,3809,66579,-66.500,6.600,,-6.600,1980/01/25 05:58:32.125
1,3841,67110,-67.040,6.600,,-6.600,1980/01/25 05:58:32.656
1,3873,67641,-67.540,6.600,,-6.600,1980/01/25 05:58:33.187
1,3905,68313,-68.230,6.600,,-6.600,1980/01/25 05:58:33.859
1,3937,68844,-68.780,6.600,,-6.600,1980/01/25 05:58:34.390
1,3969,69422,-69.340,6.600,,-6.600,1980/01/25 05:58:34.968
1,4001,69969,-69.890,6.600,,-6.600,1980/01/25 05:58:35.515
1,4033,70516,-70.440,6.600,,-6.600,1980/01/25 05:58:36.062
1,4065,71047,-70.970,6.600,,-6.600,1980/01/25 05:58:36.593
1,4097,71750,-71.660,6.500,,-6.500,1980/01/25 05:58:37.296
1,4129,72344,-72.270,6.500,,-6.500,1980/01/25 05:58:37.890
1,4161,72922,-72.820,6.500,,-6.500,1980/01/25 05:58:38.468
1,4193,73454,-73.380,6.500,,-6.500,1980/01/25 05:58:39.000
1,4225,74016,-73.940,6.400,,-6.400,1980/01/25 05:58:39.562
1,4257,74563,-74.480,6.400,,-6.400,1980/01/25 05:58:40.109
1,4289,75250,-74.990,6.400,,-6.400,1980/01/25 05:58:40.796
1,4321,75797,-75.720,6.300,,-6.300,1980/01/25 05:58:41.343
1,4353,76297,-76.220,6.200,,-6.200,1980/01/25 05:58:41.843
1,4385,76797,-76.710,6.200,,-6.200,1980/01/25 05:58:42.343
1,4417,77375,-77.300,6.100,,-6.100,1980/01/25 05:58:42.921
1,4449,77891,-77.800,6.100,,-6.100,1980/01/25 05:58:43.437
1,4481,78469,-78.370,6.000,,-6.000,1980/01/25 05:58:44.015
1,4513,79204,-79.110,5.900,,-5.900,1980/01/25 05:58:44.750
1,4545,79750,-79.670,5.800,,-5.800,1980/01/25 05:58:45.296
1,4577,80313,-80.220,5.700,,-5.700,1980/01/25 05:58:45.859
1,4609,80875,-80.790,5.600,,-5.600,1980/01/25 05:58:46.421
1,4641,81375,-81.280,5.600,,-5.600,1980/01/25 05:58:46.921
1,4673,81938,-81.840,5.500,,-5.500,1980/01/25 05:58:47.484
1,4705,82672,-82.590,5.400,,-5.400,1980/01/25 05:58:48.218
1,4737,83266,-83.180,5.300,,-5.300,1980/01/25 05:58:48.812
1,4769,83829,-83.740,5.200,,-5.200,1980/01/25 05:58:49.375
1,4801,84375,-84.300,5.100,,-5.100,1980/01/25 05:58:49.921
1,4833,84891,-84.800,5.000,,-5.000,1980/01/25 05:58:50.437
1,4865,85469,-85.380,4.900,,-4.900,1980/01/25 05:58:51.015
1,4897,86235,-86.140,4.800,,-4.800,1980/01/25 05:58:51.781
1,4929,86797,-86.710,4.600,,-4.600,1980/01/25 05:58:52.343
1,4961,87329,-87.230,4.500,,-4.500,1980/01/25 05:58:52.875
1,4993,87875,-87.790,4.400,,-4.400,1980/01/25 05:58:53.421
1,5025,88469,-88.360,4.300,,-4.300,1980/01/25 05:58:54.015
1,5057,89032,-88.930,4.100,,-4.100,1980/01/25 05:58:54.578
1,5089,89750,-89.450,4.000,,-4.000,1980/01/25 05:58:55.296
1,5121,90266,-90.170,3.900,,-3.900,1980/01/25 05:58:55.812
1,5153,90813,-90.710,3.700,,-3.700,1980/01/25 05:58:56.359
1,5185,91344,-91.240,3.400,,-3.400,1980/01/25 05:58:56.890
1,5217,91891,-91.790,3.200,,-3.200,1980/01/25 05:58:57.437
1,5249,92454,-92.350,3.000,,-3.000,1980/01/25 05:58:58.000
1,5281,93032,-92.930,2.500,,-2.500,1980/01/25 05:58:58.578
1,5308,93672,-93.530,,0.200,0.200,1980/01/25 05:58:59.218

File: Team 3 LDPE 60-T2.csv
Cycle,Test Point,Time (ms),Distance (mm),Up (N),Down (N),Force Data (N),Date / Time
1,1,0,35.540,0.500,,-0.500,1980/01/05 05:09:41.968
1,58,1016,34.540,1.400,,-1.400,1980/01/05 05:09:42.984
1,115,1953,33.610,2.300,,-2.300,1980/01/05 05:09:43.921
1,172,2938,32.620,3.100,,-3.100,1980/01/05 05:09:44.906
1,229,3922,31.640,3.600,,-3.600,1980/01/05 05:09:45.890
1,286,4813,30.750,3.900,,-3.900,1980/01/05 05:09:46.781
1,343,5766,29.800,4.100,,-4.100,1980/01/05 05:09:47.734
1,400,6735,28.830,4.300,,-4.300,1980/01/05 05:09:48.703
1,457,7719,27.850,4.400,,-4.400,1980/01/05 05:09:49.687
1,514,8641,26.920,4.400,,-4.400,1980/01/05 05:09:50.609
1,571,9594,25.980,4.500,,-4.500,1980/01/05 05:09:51.562
1,628,10563,25.010,4.600,,-4.600,1980/01/05 05:09:52.531
1,685,11485,24.090,4.600,,-4.600,1980/01/05 05:09:53.453
1,742,12438,23.140,4.700,,-4.700,1980/01/05 05:09:54.406
1,799,13438,22.150,4.700,,-4.700,1980/01/05 05:09:55.406
1,856,14438,21.140,4.800,,-4.800,1980/01/05 05:09:56.406
1,913,15375,20.190,4.800,,-4.800,1980/01/05 05:09:57.343
1,970,16391,19.190,4.800,,-4.800,1980/01/05 05:09:58.359
1,1027,17391,18.180,4.900,,-4.900,1980/01/05 05:09:59.359
1,1084,18313,17.260,5.000,,-5.000,1980/01/05 05:10:00.281
1,1141,19250,16.340,5.000,,-5.000,1980/01/05 05:10:01.218
1,1198,20203,15.370,5.000,,-5.000,1980/01/05 05:10:02.171
1,1255,21219,14.370,5.100,,-5.100,1980/01/05 05:10:03.187
1,1312,22141,13.430,5.200,,-5.200,1980/01/05 05:10:04.109
1,1369,23063,12.530,5.200,,-5.200,1980/01/05 05:10:05.031
1,1426,24094,11.490,5.300,,-5.300,1980/01/05 05:10:06.062
1,1483,25016,10.560,5.300,,-5.300,1980/01/05 05:10:06.984
1,1540,25953,9.620,5.400,,-5.400,1980/01/05 05:10:07.921
1,1597,26953,8.640,5.500,,-5.500,1980/01/05 05:10:08.921
1,1654,27953,7.620,5.500,,-5.500,1980/01/05 05:10:09.921
1,1711,28907,6.670,5.600,,-5.600,1980/01/05 05:10:10.875
1,1768,29828,5.750,5.700,,-5.700,1980/01/05 05:10:11.796
1,1825,30828,4.770,5.800,,-5.800,1980/01/05 05:10:12.796
1,1882,31735,3.850,5.800,,-5.800,1980/01/05 05:10:13.703
1,1939,32703,2.880,5.900,,-5.900,1980/01/05 05:10:14.671
1,1996,33672,1.930,6.000,,-6.000,1980/01/05 05:10:15.640
1,2053,34766,0.820,6.100,,-6.100,1980/01/05 05:10:16.734
1,2110,35703,-0.110,6.100,,-6.100,1980/01/05 05:10:17.671
1,2167,36672,-1.080,6.200,,-6.200,1980/01/05 05:10:18.640
1,2224,37782,-2.170,6.300,,-6.300,1980/01/05 05:10:19.750
1,2281,38782,-3.180,6.400,,-6.400,1980/01/05 05:10:20.750
1,2338,39703,-4.110,6.400,,-6.400,1980/01/05 05:10:21.671
1,2395,40610,-5.000,6.500,,-6.500,1980/01/05 05:10:22.578
1,2452,41657,-6.050,6.500,,-6.500,1980/01/05 05:10:23.625
1,2509,42578,-6.970,6.700,,-6.700,1980/01/05 05:10:24.546
1,2566,43516,-7.920,6.700,,-6.700,1980/01/05 05:10:25.484
1,2623,44547,-8.940,6.700,,-6.700,1980/01/05 05:10:26.515
1,2680,45532,-9.930,6.800,,-6.800,1980/01/05 05:10:27.500
1,2737,46453,-10.850,6.800,,-6.800,1980/01/05 05:10:28.421
1,2794,47438,-11.830,6.900,,-6.900,1980/01/05 05:10:29.406
1,2851,48453,-12.850,6.900,,-6.900,1980/01/05 05:10:30.421
1,2908,49422,-13.810,6.900,,-6.900,1980/01/05 05:10:31.390
1,2965,50328,-14.730,7.000,,-7.000,1980/01/05 05:10:32.296
1,3022,51407,-15.800,7.000,,-7.000,1980/01/05 05:10:33.375
1,3079,52360,-16.740,7.000,,-7.000,1980/01/05 05:10:34.328
1,3136,53407,-17.800,7.100,,-7.100,1980/01/05 05:10:35.375
1,3193,54360,-18.750,7.100,,-7.100,1980/01/05 05:10:36.328
1,3250,55422,-19.800,7.100,,-7.100,1980/01/05 05:10:37.390
1,3307,56344,-20.730,7.100,,-7.100,1980/01/05 05:10:38.312
1,3364,57266,-21.660,7.200,,-7.200,1980/01/05 05:10:39.234
1,3421,58344,-22.720,7.200,,-7.200,1980/01/05 05:10:40.312
1,3478,59266,-23.650,7.200,,-7.200,1980/01/05 05:10:41.234
1,3535,60188,-24.580,7.200,,-7.200,1980/01/05 05:10:42.156
1,3592,61157,-25.530,7.200,,-7.200,1980/01/05 05:10:43.125
1,3649,62266,-26.640,7.300,,-7.300,1980/01/05 05:10:44.234
1,3706,63250,-27.630,7.300,,-7.300,1980/01/05 05:10:45.218
1,3763,64157,-28.540,7.300,,-7.300,1980/01/05 05:10:46.125
1,3820,65219,-29.580,7.300,,-7.300,1980/01/05 05:10:47.187
1,3877,66157,-30.520,7.300,,-7.300,1980/01/05 05:10:48.125
1,3934,67078,-31.460,7.300,,-7.300,1980/01/05 05:10:49.046
1,3991,67985,-32.360,7.300,,-7.300,1980/01/05 05:10:49.953
1,4048,69078,-33.450,7.300,,-7.300,1980/01/05 05:10:51.046
1,4105,70047,-34.420,7.300,,-7.300,1980/01/05 05:10:52.015
1,4162,71000,-35.370,7.300,,-7.300,1980/01/05 05:10:52.968
1,4219,72078,-36.450,7.300,,-7.300,1980/01/05 05:10:54.046
1,4276,73063,-37.420,7.300,,-7.300,1980/01/05 05:10:55.031
1,4333,74000,-38.370,7.300,,-7.300,1980/01/05 05:10:55.968
1,4390,74922,-39.290,7.300,,-7.300,1980/01/05 05:10:56.890
1,4447,76063,-40.440,7.300,,-7.300,1980/01/05 05:10:58.031
1,4504,77063,-41.420,7.300,,-7.300,1980/01/05 05:10:59.031
1,4561,78047,-42.410,7.300,,-7.300,1980/01/05 05:11:00.015
1,4618,79203,-43.560,7.300,,-7.300,1980/01/05 05:11:01.171
1,4675,80172,-44.530,7.300,,-7.300,1980/01/05 05:11:02.140
1,4732,81141,-45.510,7.300,,-7.300,1980/01/05 05:11:03.109
1,4789,82110,-46.480,7.300,,-7.300,1980/01/05 05:11:04.078
1,4846,83250,-47.600,7.300,,-7.300,1980/01/05 05:11:05.218
1,4903,84141,-48.500,7.300,,-7.300,1980/01/05 05:11:06.109
1,4960,85078,-49.440,7.300,,-7.300,1980/01/05 05:11:07.046
1,5017,86250,-50.590,7.200,,-7.200,1980/01/05 05:11:08.218
1,5074,87203,-51.570,7.200,,-7.200,1980/01/05 05:11:09.171
1,5131,88157,-52.510,7.200,,-7.200,1980/01/05 05:11:10.125
1,5188,89157,-53.510,7.200,,-7.200,1980/01/05 05:11:11.125
1,5245,90313,-54.670,7.200,,-7.200,1980/01/05 05:11:12.281
1,5302,91250,-55.610,7.200,,-7.200,1980/01/05 05:11:13.218
1,5359,92235,-56.600,7.200,,-7.200,1980/01/05 05:11:14.203
1,5416,93391,-57.740,7.200,,-7.200,1980/01/05 05:11:15.359
1,5473,94438,-58.780,7.200,,-7.200,1980/01/05 05:11:16.406
1,5530,95391,-59.740,7.200,,-7.200,1980/01/05 05:11:17.359
1,5587,96328,-60.680,7.200,,-7.200,1980/01/05 05:11:18.296
1,5644,97453,-61.790,7.200,,-7.200,1980/01/05 05:11:19.421
1,5701,98407,-62.760,7.200,,-7.200,1980/01/05 05:11:20.375
1,5758,99328,-63.680,7.200,,-7.200,1980/01/05 05:11:21.296
1,5815,100500,-64.840,7.200,,-7.200,1980/01/05 05:11:22.468
1,5872,101469,-65.810,7.200,,-7.200,1980/01/05 05:11:23.437
1,5929,102438,-66.780,7.200,,-7.200,1980/01/05 05:11:24.406
1,5986,103407,-67.750,7.200,,-7.200,1980/01/05 05:11:25.375
1,6043,104594,-68.950,7.200,,-7.200,1980/01/05 05:11:26.562
1,6100,105563,-69.900,7.200,,-7.200,1980/01/05 05:11:27.531
1,6157,106500,-70.840,7.200,,-7.200,1980/01/05 05:11:28.468
1,6214,107657,-72.000,7.200,,-7.200,1980/01/05 05:11:29.625
1,6271,108610,-72.950,7.200,,-7.200,1980/01/05 05:11:30.578
1,6328,109516,-73.870,7.200,,-7.200,1980/01/05 05:11:31.484
1,6385,110453,-74.800,7.200,,-7.200,1980/01/05 05:11:32.421
1,6442,111641,-75.970,7.200,,-7.200,1980/01/05 05:11:33.609
1,6499,112578,-76.910,7.200,,-7.200,1980/01/05 05:11:34.546
1,6556,113578,-77.920,7.200,,-7.200,1980/01/05 05:11:35.546
1,6613,114719,-79.060,7.200,,-7.200,1980/01/05 05:11:36.687
1,6670,115672,-80.010,7.200,,-7.200,1980/01/05 05:11:37.640
1,6727,116625,-80.950,7.200,,-7.200,1980/01/05 05:11:38.593
1,6784,117516,-81.870,7.200,,-7.200,1980/01/05 05:11:39.484
1,6841,118657,-82.980,7.200,,-7.200,1980/01/05 05:11:40.625
1,6898,119610,-83.940,7.200,,-7.200,1980/01/05 05:11:41.578
1,6955,120532,-84.870,7.200,,-7.200,1980/01/05 05:11:42.500
1,7012,121703,-86.040,7.200,,-7.200,1980/01/05 05:11:43.671
1,7069,122672,-87.000,7.200,,-7.200,1980/01/05 05:11:44.640
1,7126,123578,-87.910,7.300,,-7.300,1980/01/05 05:11:45.546
1,7183,124532,-88.870,7.200,,-7.200,1980/01/05 05:11:46.500
1,7240,125735,-90.060,7.300,,-7.300,1980/01/05 05:11:47.703
1,7297,126688,-91.010,7.300,,-7.300,1980/01/05 05:11:48.656
1,7354,127610,-91.940,7.300,,-7.300,1980/01/05 05:11:49.578
1,7411,128797,-93.100,7.300,,-7.300,1980/01/05 05:11:50.765
1,7468,129750,-94.060,7.300,,-7.300,1980/01/05 05:11:51.718
1,7525,130735,-95.060,7.300,,-7.300,1980/01/05 05:11:52.703
1,7582,131672,-96.000,7.300,,-7.300,1980/01/05 05:11:53.640
1,7639,132875,-97.180,7.300,,-7.300,1980/01/05 05:11:54.843
1,7696,133813,-98.130,7.200,,-7.200,1980/01/05 05:11:55.781
1,7753,134735,-99.060,7.200,,-7.200,1980/01/05 05:11:56.703
1,7810,135938,-100.250,7.200,,-7.200,1980/01/05 05:11:57.906
1,7867,136922,-101.230,7.300,,-7.300,1980/01/05 05:11:58.890
1,7924,137891,-102.210,7.300,,-7.300,1980/01/05 05:11:59.859
1,7981,138844,-103.160,7.300,,-7.300,1980/01/05 05:12:00.812
1,8038,140063,-104.370,7.200,,-7.200,1980/01/05 05:12:02.031
1,8095,140985,-105.290,7.200,,-7.200,1980/01/05 05:12:02.953
1,8152,141922,-106.240,7.200,,-7.200,1980/01/05 05:12:03.890
1,8209,143157,-107.460,7.200,,-7.200,1980/01/05 05:12:05.125
1,8266,144125,-108.430,7.200,,-7.200,1980/01/05 05:12:06.093
1,8323,145032,-109.350,7.200,,-7.200,1980/01/05 05:12:07.000
1,8380,145985,-110.290,7.200,,-7.200,1980/01/05 05:12:07.953
1,8437,147203,-111.510,7.200,,-7.200,1980/01/05 05:12:09.171
1,8494,148141,-112.450,7.200,,-7.200,1980/01/05 05:12:10.109
1,8551,149063,-113.370,7.300,,-7.300,1980/01/05 05:12:11.031
1,8608,150282,-114.290,7.200,,-7.200,1980/01/05 05:12:12.250
1,8665,151203,-115.510,7.200,,-7.200,1980/01/05 05:12:13.171
1,8722,152157,-116.460,7.100,,-7.100,1980/01/05 05:12:14.125
1,8779,153125,-117.430,7.100,,-7.100,1980/01/05 05:12:15.093
1,8836,154344,-118.640,7.100,,-7.100,1980/01/05 05:12:16.312
1,8893,155313,-119.610,7.000,,-7.000,1980/01/05 05:12:17.281
1,8950,156235,-120.540,6.900,,-6.900,1980/01/05 05:12:18.203
1,9007,157485,-121.490,6.900,,-6.900,1980/01/05 05:12:19.453
1,9064,158469,-122.770,6.800,,-6.800,1980/01/05 05:12:20.437
1,9121,159422,-123.730,6.700,,-6.700,1980/01/05 05:12:21.390
1,9178,160360,-124.660,6.500,,-6.500,1980/01/05 05:12:22.328
1,9235,161610,-125.910,6.200,,-6.200,1980/01/05 05:12:23.578
1,9292,162563,-126.870,5.900,,-5.900,1980/01/05 05:12:24.531
1,9349,163563,-127.850,5.700,,-5.700,1980/01/05 05:12:25.531
1,9406,164485,-128.780,5.300,,-5.300,1980/01/05 05:12:26.453
1,9463,165750,-130.050,4.700,,-4.700,1980/01/05 05:12:27.718
1,9514,166735,-130.960,0.100,,-0.100,1980/01/05 05:12:28.703