Folder: Rowan-Classes/1st-Semester-Fall-2021/FEC1/LDPE Tensile Strength Tests (part 2)

File: Team 3 LDPE 50 1.csv
Cycle,Test Point,Time (ms),Distance (mm),Up (N),Down (N),Force Data (N),Date / Time
1,1,0,0.000,,,0.000,1980/01/25 05:51:07.000
1,21,390,-0.310,0.300,,-0.300,1980/01/25 05:51:07.390
1,41,703,-0.570,0.700,,-0.700,1980/01/25 05:51:07.703
1,61,1046,-0.870,1.200,,-1.200,1980/01/25 05:51:08.046
1,81,1359,-1.120,1.600,,-1.600,1980/01/25 05:51:08.359
1,101,1703,-1.400,1.900,,-1.900,1980/01/25 05:51:08.703
1,121,2031,-1.680,2.200,,-2.200,1980/01/25 05:51:09.031
1,141,2359,-1.950,2.500,,-2.500,1980/01/25 05:51:09.359
1,161,2750,-2.260,2.700,,-2.700,1980/01/25 05:51:09.750
1,181,3078,-2.540,2.900,,-2.900,1980/01/25 05:51:10.078
1,201,3406,-2.820,3.100,,-3.100,1980/01/25 05:51:10.406
1,221,3718,-3.080,3.200,,-3.200,1980/01/25 05:51:10.718
1,241,4062,-3.360,3.300,,-3.300,1980/01/25 05:51:11.062
1,261,4375,-3.620,3.500,,-3.500,1980/01/25 05:51:11.375
1,281,4718,-3.910,3.600,,-3.600,1980/01/25 05:51:11.718
1,301,5046,-4.190,3.600,,-3.600,1980/01/25 05:51:12.046
1,321,5375,-4.460,3.700,,-3.700,1980/01/25 05:51:12.375
1,341,5703,-4.720,3.700,,-3.700,1980/01/25 05:51:12.703
1,361,6093,-5.060,3.800,,-3.800,1980/01/25 05:51:13.093
1,381,6437,-5.340,3.800,,-3.800,1980/01/25 05:51:13.437
1,401,6750,-5.600,3.900,,-3.900,1980/01/25 05:51:13.750
1,421,7062,-5.860,3.900,,-3.900,1980/01/25 05:51:14.062
1,441,7390,-6.130,3.900,,-3.900,1980/01/25 05:51:14.390
1,461,7718,-6.400,3.900,,-3.900,1980/01/25 05:51:14.718
1,481,8062,-6.690,3.900,,-3.900,1980/01/25 05:51:15.062
1,501,8421,-6.990,3.900,,-3.900,1980/01/25 05:51:15.421
1,521,8828,-7.330,3.900,,-3.900,1980/01/25 05:51:15.828
1,541,9156,-7.600,3.900,,-3.900,1980/01/25 05:51:16.156
1,561,9531,-7.920,3.900,,-3.900,1980/01/25 05:51:16.531
1,581,9875,-8.200,3.900,,-3.900,1980/01/25 05:51:16.875
1,601,10187,-8.460,3.900,,-3.900,1980/01/25 05:51:17.187
1,621,10562,-8.780,3.800,,-3.800,1980/01/25 05:51:17.562
1,641,10906,-9.070,3.800,,-3.800,1980/01/25 05:51:17.906
1,661,11234,-9.330,3.800,,-3.800,1980/01/25 05:51:18.234
1,681,11562,-9.610,3.800,,-3.800,1980/01/25 05:51:18.562
1,701,11906,-9.870,3.800,,-3.800,1980/01/25 05:51:18.906
1,721,12250,-10.180,3.700,,-3.700,1980/01/25 05:51:19.250
1,741,12578,-10.450,3.700,,-3.700,1980/01/25 05:51:19.578
1,761,12984,-10.780,3.700,,-3.700,1980/01/25 05:51:19.984
1,781,13312,-11.060,3.700,,-3.700,1980/01/25 05:51:20.312
1,801,13656,-11.340,3.600,,-3.600,1980/01/25 05:51:20.656
1,821,14015,-11.630,3.700,,-3.700,1980/01/25 05:51:21.015
1,841,14328,-11.910,3.600,,-3.600,1980/01/25 05:51:21.328
1,861,14656,-12.180,3.600,,-3.600,1980/01/25 05:51:21.656
1,881,14984,-12.450,3.600,,-3.600,1980/01/25 05:51:21.984
1,901,15312,-12.730,3.600,,-3.600,1980/01/25 05:51:22.312
1,921,15687,-13.040,3.600,,-3.600,1980/01/25 05:51:22.687
1,941,16000,-13.290,3.600,,-3.600,1980/01/25 05:51:23.000
1,961,16390,-13.620,3.600,,-3.600,1980/01/25 05:51:23.390
1,981,16703,-13.880,3.600,,-3.600,1980/01/25 05:51:23.703
1,1001,17031,-14.150,3.600,,-3.600,1980/01/25 05:51:24.031
1,1021,17359,-14.430,3.600,,-3.600,1980/01/25 05:51:24.359
1,1041,17687,-14.690,3.600,,-3.600,1980/01/25 05:51:24.687
1,1061,18078,-15.010,3.600,,-3.600,1980/01/25 05:51:25.078
1,1081,18406,-15.300,3.600,,-3.600,1980/01/25 05:51:25.406
1,1101,18718,-15.560,3.500,,-3.500,1980/01/25 05:51:25.718
1,1121,19046,-15.830,3.500,,-3.500,1980/01/25 05:51:26.046
1,1141,19390,-16.110,3.500,,-3.500,1980/01/25 05:51:26.390
1,1161,19781,-16.440,3.500,,-3.500,1980/01/25 05:51:26.781
1,1181,20109,-16.720,3.500,,-3.500,1980/01/25 05:51:27.109
1,1201,20453,-17.000,3.500,,-3.500,1980/01/25 05:51:27.453
1,1221,20796,-17.290,3.500,,-3.500,1980/01/25 05:51:27.796
1,1241,21171,-17.600,3.500,,-3.500,1980/01/25 05:51:28.171
1,1261,21546,-17.910,3.500,,-3.500,1980/01/25 05:51:28.546
1,1281,21921,-18.200,3.500,,-3.500,1980/01/25 05:51:28.921
1,1301,22234,-18.480,3.500,,-3.500,1980/01/25 05:51:29.234
1,1321,22593,-18.790,3.500,,-3.500,1980/01/25 05:51:29.593
1,1341,22953,-19.070,3.500,,-3.500,1980/01/25 05:51:29.953
1,1361,23390,-19.450,3.400,,-3.400,1980/01/25 05:51:30.390
1,1381,23718,-19.720,3.400,,-3.400,1980/01/25 05:51:30.718
1,1401,24078,-20.020,3.400,,-3.400,1980/01/25 05:51:31.078
1,1421,24406,-20.290,3.400,,-3.400,1980/01/25 05:51:31.406
1,1441,24750,-20.570,3.400,,-3.400,1980/01/25 05:51:31.750
1,1461,25125,-20.880,3.400,,-3.400,1980/01/25 05:51:32.125
1,1481,25437,-21.140,3.300,,-3.300,1980/01/25 05:51:32.437
1,1501,25765,-21.420,3.300,,-3.300,1980/01/25 05:51:32.765
1,1521,26078,-21.670,3.300,,-3.300,1980/01/25 05:51:33.078
1,1541,26421,-21.960,3.300,,-3.300,1980/01/25 05:51:33.421
1,1561,26843,-22.300,3.200,,-3.200,1980/01/25 05:51:33.843
1,1581,27171,-22.600,3.200,,-3.200,1980/01/25 05:51:34.171
1,1601,27484,-22.850,3.200,,-3.200,1980/01/25 05:51:34.484
1,1621,27812,-23.120,3.200,,-3.200,1980/01/25 05:51:34.812
1,1641,28140,-23.400,3.100,,-3.100,1980/01/25 05:51:35.140
1,1661,28453,-23.650,3.100,,-3.100,1980/01/25 05:51:35.453
1,1681,28781,-23.930,3.100,,-3.100,1980/01/25 05:51:35.781
1,1701,29109,-24.200,3.100,,-3.100,1980/01/25 05:51:36.109
1,1721,29437,-24.470,3.100,,-3.100,1980/01/25 05:51:36.437
1,1741,29750,-24.730,3.100,,-3.100,1980/01/25 05:51:36.750
1,1761,30171,-25.080,3.200,,-3.200,1980/01/25 05:51:37.171
1,1781,30515,-25.370,3.200,,-3.200,1980/01/25 05:51:37.515
1,1801,30843,-25.620,3.200,,-3.200,1980/01/25 05:51:37.843
1,1821,31187,-25.920,3.200,,-3.200,1980/01/25 05:51:38.187
1,1841,31515,-26.190,3.200,,-3.200,1980/01/25 05:51:38.515
1,1861,31843,-26.470,3.200,,-3.200,1980/01/25 05:51:38.843
1,1881,32171,-26.740,3.200,,-3.200,1980/01/25 05:51:39.171
1,1901,32484,-27.000,3.200,,-3.200,1980/01/25 05:51:39.484
1,1921,32812,-27.280,3.200,,-3.200,1980/01/25 05:51:39.812
1,1941,33156,-27.570,3.200,,-3.200,1980/01/25 05:51:40.156
1,1961,33578,-27.920,3.200,,-3.200,1980/01/25 05:51:40.578
1,1981,33890,-28.180,3.200,,-3.200,1980/01/25 05:51:40.890
1,2001,34218,-28.450,3.200,,-3.200,1980/01/25 05:51:41.218
1,2021,34578,-28.750,3.200,,-3.200,1980/01/25 05:51:41.578
1,2041,34906,-29.020,3.200,,-3.200,1980/01/25 05:51:41.906
1,2061,35234,-29.290,3.200,,-3.200,1980/01/25 05:51:42.234
1,2081,35593,-29.590,3.300,,-3.300,1980/01/25 05:51:42.593
1,2101,35906,-29.860,3.300,,-3.300,1980/01/25 05:51:42.906
1,2121,36234,-30.120,3.300,,-3.300,1980/01/25 05:51:43.234
1,2141,36546,-30.380,3.200,,-3.200,1980/01/25 05:51:43.546
1,2161,36984,-30.750,3.200,,-3.200,1980/01/25 05:51:43.984
1,2181,37312,-31.020,3.200,,-3.200,1980/01/25 05:51:44.312
1,2201,37656,-31.310,3.300,,-3.300,1980/01/25 05:51:44.656
1,2221,38015,-31.600,3.200,,-3.200,1980/01/25 05:51:45.015
1,2241,38328,-31.860,3.200,,-3.200,1980/01/25 05:51:45.328
1,2261,38671,-32.150,3.200,,-3.200,1980/01/25 05:51:45.671
1,2281,38984,-32.410,3.200,,-3.200,1980/01/25 05:51:45.984
1,2301,39312,-32.680,3.200,,-3.200,1980/01/25 05:51:46.312
1,2321,39625,-32.940,3.200,,-3.200,1980/01/25 05:51:46.625
1,2341,39953,-33.220,3.200,,-3.200,1980/01/25 05:51:46.953
1,2361,40390,-33.580,3.200,,-3.200,1980/01/25 05:51:47.390
1,2381,40734,-33.870,3.200,,-3.200,1980/01/25 05:51:47.734
1,2401,41078,-34.150,3.100,,-3.100,1980/01/25 05:51:48.078
1,2421,41421,-34.440,3.100,,-3.100,1980/01/25 05:51:48.421
1,2441,41765,-34.710,3.000,,-3.000,1980/01/25 05:51:48.765
1,2461,42093,-35.000,3.000,,-3.000,1980/01/25 05:51:49.093
1,2481,42421,-35.250,2.900,,-2.900,1980/01/25 05:51:49.421
1,2501,42765,-35.550,2.900,,-2.900,1980/01/25 05:51:49.765
1,2521,43093,-35.830,2.900,,-2.900,1980/01/25 05:51:50.093
1,2541,43421,-36.100,2.800,,-2.800,1980/01/25 05:51:50.421
1,2561,43843,-36.450,2.800,,-2.800,1980/01/25 05:51:50.843
1,2581,44171,-36.720,2.700,,-2.700,1980/01/25 05:51:51.171
1,2601,44515,-37.000,2.700,,-2.700,1980/01/25 05:51:51.515
1,2621,44843,-37.290,2.700,,-2.700,1980/01/25 05:51:51.843
1,2641,45218,-37.590,2.600,,-2.600,1980/01/25 05:51:52.218
1,2661,45562,-37.880,2.600,,-2.600,1980/01/25 05:51:52.562
1,2681,45890,-38.140,2.600,,-2.600,1980/01/25 05:51:52.890
1,2701,46234,-38.450,2.600,,-2.600,1980/01/25 05:51:53.234
1,2721,46593,-38.730,2.500,,-2.500,1980/01/25 05:51:53.593
1,2741,46906,-38.990,2.500,,-2.500,1980/01/25 05:51:53.906
1,2761,47390,-39.390,2.400,,-2.400,1980/01/25 05:51:54.390
1,2781,47703,-39.670,2.400,,-2.400,1980/01/25 05:51:54.703
1,2801,48031,-39.940,2.400,,-2.400,1980/01/25 05:51:55.031
1,2821,48359,-40.210,2.300,,-2.300,1980/01/25 05:51:55.359
1,2841,48687,-40.470,2.300,,-2.300,1980/01/25 05:51:55.687
1,2861,49031,-40.770,2.200,,-2.200,1980/01/25 05:51:56.031
1,2881,49343,-41.020,2.200,,-2.200,1980/01/25 05:51:56.343
1,2901,49671,-41.300,2.100,,-2.100,1980/01/25 05:51:56.671
1,2921,50031,-41.590,2.100,,-2.100,1980/01/25 05:51:57.031
1,2941,50343,-41.860,2.100,,-2.100,1980/01/25 05:51:57.343
1,2961,50781,-42.220,2.000,,-2.000,1980/01/25 05:51:57.781
1,2981,51125,-42.510,2.000,,-2.000,1980/01/25 05:51:58.125
1,3001,51437,-42.760,1.900,,-1.900,1980/01/25 05:51:58.437
1,3021,51765,-43.050,1.900,,-1.900,1980/01/25 05:51:58.765
1,3041,52125,-43.330,1.800,,-1.800,1980/01/25 05:51:59.125
1,3061,52484,-43.630,1.800,,-1.800,1980/01/25 05:51:59.484
1,3081,52843,-43.930,1.700,,-1.700,1980/01/25 05:51:59.843
1,3101,53203,-44.220,1.600,,-1.600,1980/01/25 05:52:00.203
1,3121,53562,-44.530,1.600,,-1.600,1980/01/25 05:52:00.562
1,3141,53890,-44.810,1.500,,-1.500,1980/01/25 05:52:00.890
1,3161,54390,-45.210,1.400,,-1.400,1980/01/25 05:52:01.390
1,3181,54703,-45.480,1.400,,-1.400,1980/01/25 05:52:01.703
1,3201,55015,-45.750,1.300,,-1.300,1980/01/25 05:52:02.015
1,3221,55328,-46.000,1.300,,-1.300,1980/01/25 05:52:02.328
1,3241,55656,-46.280,1.200,,-1.200,1980/01/25 05:52:02.656
1,3261,56000,-46.550,1.100,,-1.100,1980/01/25 05:52:03.000
1,3281,56343,-46.860,1.100,,-1.100,1980/01/25 05:52:03.343
1,3301,56671,-47.120,1.000,,-1.000,1980/01/25 05:52:03.671
1,3321,56984,-47.380,0.900,,-0.900,1980/01/25 05:52:03.984
1,3341,57312,-47.630,0.700,,-0.700,1980/01/25 05:52:04.312
1,3361,57781,-48.040,,0.200,0.200,1980/01/25 05:52:04.781
1,3381,58109,-48.280,,0.200,0.200,1980/01/25 05:52:05.109
1,3382,58125,-48.280,,0.200,0.200,1980/01/25 05:52:05.125

File: Team 3 LDPE 50-T2.csv
Cycle,Test Point,Time (ms),Distance (mm),Up (N),Down (N),Force Data (N),Date / Time
1,1,0,32.370,0.300,,-0.300,1980/01/05 05:05:55.984
1,40,609,31.890,0.500,,-0.500,1980/01/05 05:05:56.593
1,79,1281,31.330,0.900,,-0.900,1980/01/05 05:05:57.265
1,118,1906,30.820,1.400,,-1.400,1980/01/05 05:05:57.890
1,157,2547,30.280,1.900,,-1.900,1980/01/05 05:05:58.531
1,196,3172,29.760,2.300,,-2.300,1980/01/05 05:05:59.156
1,235,3797,29.240,2.700,,-2.700,1980/01/05 05:05:59.781
1,274,4469,28.680,3.000,,-3.000,1980/01/05 05:06:00.453
1,313,5094,28.160,3.200,,-3.200,1980/01/05 05:06:01.078
1,352,5766,27.610,3.400,,-3.400,1980/01/05 05:06:01.750
1,391,6375,27.090,3.600,,-3.600,1980/01/05 05:06:02.359
1,430,6984,26.590,3.700,,-3.700,1980/01/05 05:06:02.968
1,469,7594,26.080,3.900,,-3.900,1980/01/05 05:06:03.578
1,508,8250,25.530,4.000,,-4.000,1980/01/05 05:06:04.234
1,547,8875,25.020,4.100,,-4.100,1980/01/05 05:06:04.859
1,586,9484,24.510,4.100,,-4.100,1980/01/05 05:06:05.468
1,625,10094,24.000,4.200,,-4.200,1980/01/05 05:06:06.078
1,664,10703,23.490,4.300,,-4.300,1980/01/05 05:06:06.687
1,703,11375,22.930,4.300,,-4.300,1980/01/05 05:06:07.359
1,742,12031,22.390,4.400,,-4.400,1980/01/05 05:06:08.015
1,781,12703,21.840,4.400,,-4.400,1980/01/05 05:06:08.687
1,820,13375,21.270,4.400,,-4.400,1980/01/05 05:06:09.359
1,859,14047,20.710,4.500,,-4.500,1980/01/05 05:06:10.031
1,898,14750,20.120,4.500,,-4.500,1980/01/05 05:06:10.734
1,937,15406,19.590,4.500,,-4.500,1980/01/05 05:06:11.390
1,976,16016,19.070,4.600,,-4.600,1980/01/05 05:06:12.000
1,1015,16687,18.520,4.600,,-4.600,1980/01/05 05:06:12.671
1,1054,17312,17.990,4.600,,-4.600,1980/01/05 05:06:13.296
1,1093,18000,17.420,4.700,,-4.700,1980/01/05 05:06:13.984
1,1132,18641,16.890,4.700,,-4.700,1980/01/05 05:06:14.625
1,1171,19297,16.340,4.700,,-4.700,1980/01/05 05:06:15.281
1,1210,19953,15.800,4.700,,-4.700,1980/01/05 05:06:15.937
1,1249,20609,15.250,4.800,,-4.800,1980/01/05 05:06:16.593
1,1288,21328,14.660,4.800,,-4.800,1980/01/05 05:06:17.312
1,1327,21984,14.120,4.800,,-4.800,1980/01/05 05:06:17.968
1,1366,22609,13.590,4.800,,-4.800,1980/01/05 05:06:18.593
1,1405,23250,13.050,4.900,,-4.900,1980/01/05 05:06:19.234
1,1444,23891,12.520,4.900,,-4.900,1980/01/05 05:06:19.875
1,1483,24656,11.880,4.900,,-4.900,1980/01/05 05:06:20.640
1,1522,25281,11.370,5.000,,-5.000,1980/01/05 05:06:21.265
1,1561,25953,10.810,5.000,,-5.000,1980/01/05 05:06:21.937
1,1600,26625,10.270,5.000,,-5.000,1980/01/05 05:06:22.609
1,1639,27281,9.710,5.100,,-5.100,1980/01/05 05:06:23.265
1,1678,28000,9.100,5.100,,-5.100,1980/01/05 05:06:23.984
1,1717,28656,8.560,5.100,,-5.100,1980/01/05 05:06:24.640
1,1756,29281,8.040,5.100,,-5.100,1980/01/05 05:06:25.265
1,1795,30016,7.430,5.200,,-5.200,1980/01/05 05:06:26.000
1,1834,30656,6.900,5.200,,-5.200,1980/01/05 05:06:26.640
1,1873,31359,6.320,5.200,,-5.200,1980/01/05 05:06:27.343
1,1912,32000,5.780,5.300,,-5.300,1980/01/05 05:06:27.984
1,1951,32641,5.240,5.300,,-5.300,1980/01/05 05:06:28.625
1,1990,33281,4.710,5.300,,-5.300,1980/01/05 05:06:29.265
1,2029,33906,4.200,5.300,,-5.300,1980/01/05 05:06:29.890
1,2068,34547,3.670,5.400,,-5.400,1980/01/05 05:06:30.531
1,2107,35250,3.080,5.400,,-5.400,1980/01/05 05:06:31.234
1,2146,35891,2.550,5.400,,-5.400,1980/01/05 05:06:31.875
1,2185,36531,2.010,5.500,,-5.500,1980/01/05 05:06:32.515
1,2224,37172,1.480,5.500,,-5.500,1980/01/05 05:06:33.156
1,2263,37781,0.980,5.500,,-5.500,1980/01/05 05:06:33.765
1,2302,38531,0.360,5.600,,-5.600,1980/01/05 05:06:34.515
1,2341,39187,-0.190,5.600,,-5.600,1980/01/05 05:06:35.171
1,2380,39844,-0.730,5.600,,-5.600,1980/01/05 05:06:35.828
1,2419,40469,-1.250,5.700,,-5.700,1980/01/05 05:06:36.453
1,2458,41094,-1.770,5.700,,-5.700,1980/01/05 05:06:37.078
1,2497,41812,-2.370,5.700,,-5.700,1980/01/05 05:06:37.796
1,2536,42484,-2.930,5.800,,-5.800,1980/01/05 05:06:38.468
1,2575,43156,-3.490,5.800,,-5.800,1980/01/05 05:06:39.140
1,2614,43781,-4.000,5.800,,-5.800,1980/01/05 05:06:39.765
1,2653,44422,-4.540,5.900,,-5.900,1980/01/05 05:06:40.406
1,2692,45187,-5.170,5.900,,-5.900,1980/01/05 05:06:41.171
1,2731,45828,-5.710,5.900,,-5.900,1980/01/05 05:06:41.812
1,2770,46437,-6.230,5.900,,-5.900,1980/01/05 05:06:42.421
1,2809,47094,-6.760,6.000,,-6.000,1980/01/05 05:06:43.078
1,2848,47719,-7.280,6.000,,-6.000,1980/01/05 05:06:43.703
1,2887,48484,-7.930,6.000,,-6.000,1980/01/05 05:06:44.468
1,2926,49125,-8.460,6.000,,-6.000,1980/01/05 05:06:45.109
1,2965,49797,-9.000,6.000,,-6.000,1980/01/05 05:06:45.781
1,3004,50437,-9.540,6.100,,-6.100,1980/01/05 05:06:46.421
1,3043,51125,-10.110,6.100,,-6.100,1980/01/05 05:06:47.109
1,3082,51875,-10.730,6.100,,-6.100,1980/01/05 05:06:47.859
1,3121,52484,-11.240,6.100,,-6.100,1980/01/05 05:06:48.468
1,3160,53172,-11.820,6.100,,-6.100,1980/01/05 05:06:49.156
1,3199,53797,-12.330,6.200,,-6.200,1980/01/05 05:06:49.781
1,3238,54437,-12.870,6.200,,-6.200,1980/01/05 05:06:50.421
1,3277,55187,-13.500,6.200,,-6.200,1980/01/05 05:06:51.171
1,3316,55797,-13.990,6.200,,-6.200,1980/01/05 05:06:51.781
1,3355,56453,-14.550,6.200,,-6.200,1980/01/05 05:06:52.437
1,3394,57094,-15.080,6.200,,-6.200,1980/01/05 05:06:53.078
1,3433,57750,-15.630,6.200,,-6.200,1980/01/05 05:06:53.734
1,3472,58547,-16.280,6.300,,-6.300,1980/01/05 05:06:54.531
1,3511,59187,-16.820,6.300,,-6.300,1980/01/05 05:06:55.171
1,3550,59844,-17.360,6.300,,-6.300,1980/01/05 05:06:55.828
1,3589,60469,-17.890,6.300,,-6.300,1980/01/05 05:06:56.453
1,3628,61109,-18.410,6.300,,-6.300,1980/01/05 05:06:57.093
1,3667,61781,-18.970,6.400,,-6.400,1980/01/05 05:06:57.765
1,3706,62562,-19.630,6.400,,-6.400,1980/01/05 05:06:58.546
1,3745,63234,-20.180,6.400,,-6.400,1980/01/05 05:06:59.218
1,3784,63875,-20.720,6.400,,-6.400,1980/01/05 05:06:59.859
1,3823,64500,-21.240,6.400,,-6.400,1980/01/05 05:07:00.484
1,3862,65172,-21.790,6.500,,-6.500,1980/01/05 05:07:01.156
1,3901,65969,-22.460,6.500,,-6.500,1980/01/05 05:07:01.953
1,3940,66578,-22.970,6.500,,-6.500,1980/01/05 05:07:02.562
1,3979,67219,-23.500,6.500,,-6.500,1980/01/05 05:07:03.203
1,4018,67891,-24.040,6.500,,-6.500,1980/01/05 05:07:03.875
1,4057,68578,-24.630,6.500,,-6.500,1980/01/05 05:07:04.562
1,4096,69437,-25.350,6.600,,-6.600,1980/01/05 05:07:05.421
1,4135,70094,-25.890,6.600,,-6.600,1980/01/05 05:07:06.078
1,4174,70781,-26.460,6.600,,-6.600,1980/01/05 05:07:06.765
1,4213,71391,-26.970,6.600,,-6.600,1980/01/05 05:07:07.375
1,4252,72000,-27.470,6.600,,-6.600,1980/01/05 05:07:07.984
1,4291,72812,-28.140,6.600,,-6.600,1980/01/05 05:07:08.796
1,4330,73500,-28.730,6.700,,-6.700,1980/01/05 05:07:09.484
1,4369,74141,-29.250,6.700,,-6.700,1980/01/05 05:07:10.125
1,4408,74812,-29.820,6.700,,-6.700,1980/01/05 05:07:10.796
1,4447,75453,-30.350,6.700,,-6.700,1980/01/05 05:07:11.437
1,4486,76266,-31.020,6.700,,-6.700,1980/01/05 05:07:12.250
1,4525,76922,-31.570,6.700,,-6.700,1980/01/05 05:07:12.906
1,4564,77562,-32.100,6.700,,-6.700,1980/01/05 05:07:13.546
1,4603,78234,-32.650,6.700,,-6.700,1980/01/05 05:07:14.218
1,4642,78859,-33.170,6.700,,-6.700,1980/01/05 05:07:14.843
1,4681,79672,-33.850,6.800,,-6.800,1980/01/05 05:07:15.656
1,4720,80344,-34.410,6.800,,-6.800,1980/01/05 05:07:16.328
1,4759,81000,-34.970,6.700,,-6.700,1980/01/05 05:07:16.984
1,4798,81656,-35.510,6.800,,-6.800,1980/01/05 05:07:17.640
1,4837,82344,-36.080,6.800,,-6.800,1980/01/05 05:07:18.328
1,4876,83125,-36.730,6.700,,-6.700,1980/01/05 05:07:19.109
1,4915,83812,-37.310,6.700,,-6.700,1980/01/05 05:07:19.796
1,4954,84484,-37.860,6.700,,-6.700,1980/01/05 05:07:20.468
1,4993,85109,-38.370,6.700,,-6.700,1980/01/05 05:07:21.093
1,5032,85781,-38.930,6.700,,-6.700,1980/01/05 05:07:21.765
1,5071,86609,-39.470,6.700,,-6.700,1980/01/05 05:07:22.593
1,5110,87234,-40.140,6.600,,-6.600,1980/01/05 05:07:23.218
1,5149,87844,-40.650,6.600,,-6.600,1980/01/05 05:07:23.828
1,5188,88469,-41.170,6.600,,-6.600,1980/01/05 05:07:24.453
1,5227,89141,-41.730,6.600,,-6.600,1980/01/05 05:07:25.125
1,5266,89766,-42.250,6.600,,-6.600,1980/01/05 05:07:25.750
1,5305,90578,-42.930,6.600,,-6.600,1980/01/05 05:07:26.562
1,5344,91234,-43.470,6.500,,-6.500,1980/01/05 05:07:27.218
1,5383,91844,-43.980,6.500,,-6.500,1980/01/05 05:07:27.828
1,5422,92500,-44.520,6.400,,-6.400,1980/01/05 05:07:28.484
1,5461,93203,-45.110,6.300,,-6.300,1980/01/05 05:07:29.187
1,5500,94000,-45.760,6.300,,-6.300,1980/01/05 05:07:29.984
1,5539,94656,-46.310,6.200,,-6.200,1980/01/05 05:07:30.640
1,5578,95328,-46.870,6.100,,-6.100,1980/01/05 05:07:31.312
1,5617,96000,-47.440,6.000,,-6.000,1980/01/05 05:07:31.984
1,5656,96641,-47.960,5.900,,-5.900,1980/01/05 05:07:32.625
1,5695,97500,-48.690,5.800,,-5.800,1980/01/05 05:07:33.484
1,5734,98125,-49.200,5.700,,-5.700,1980/01/05 05:07:34.109
1,5773,98750,-49.720,5.600,,-5.600,1980/01/05 05:07:34.734
1,5812,99375,-50.240,5.500,,-5.500,1980/01/05 05:07:35.359
1,5851,100000,-50.760,5.400,,-5.400,1980/01/05 05:07:35.984
1,5890,100844,-51.460,5.300,,-5.300,1980/01/05 05:07:36.828
1,5929,101484,-52.000,5.200,,-5.200,1980/01/05 05:07:37.468
1,5968,102156,-52.550,5.200,,-5.200,1980/01/05 05:07:38.140
1,6007,102828,-53.110,5.100,,-5.100,1980/01/05 05:07:38.812
1,6046,103453,-53.630,4.900,,-4.900,1980/01/05 05:07:39.437
1,6085,104297,-54.330,4.800,,-4.800,1980/01/05 05:07:40.281
1,6124,104937,-54.860,4.800,,-4.800,1980/01/05 05:07:40.921
1,6163,105609,-55.430,4.600,,-4.600,1980/01/05 05:07:41.593
1,6202,106281,-55.980,4.500,,-4.500,1980/01/05 05:07:42.265
1,6241,106953,-56.550,4.400,,-4.400,1980/01/05 05:07:42.937
1,6280,107766,-57.230,4.200,,-4.200,1980/01/05 05:07:43.750
1,6319,108422,-57.760,4.100,,-4.100,1980/01/05 05:07:44.406
1,6358,109094,-58.320,3.900,,-3.900,1980/01/05 05:07:45.078
1,6397,109781,-58.900,3.700,,-3.700,1980/01/05 05:07:45.765
1,6436,110406,-59.420,3.500,,-3.500,1980/01/05 05:07:46.390
1,6475,111250,-60.120,3.200,,-3.200,1980/01/05 05:07:47.234
1,6514,111891,-60.650,0.100,,-0.100,1980/01/05 05:07:47.875
1,6530,112156,-60.840,0.100,,-0.100,1980/01/05 05:07:48.140